Folder: TEMANN/data

Note: README.md
# TEMANN
This a repo for our project.

__GO TEAM!__


Ellen was here

File: TE_survey_csv_repaired.csv
T (K),Z*10^-4 reported,Resist. (Ohm.cm),Seebeck (uV/K),kappaZT,,Resist. (400K),Seebeck (400K),Pf (W/K^2/m),ZT,kappa (W/mK),x,Formula,series,T Max,family,,,Conduct. (S/cm),,Power Factor*T (W/mK),preparative route,final form,Authors,DOI,Comments,Comments,Cell Volume (A^3),Formula Units per Cell,Atoms per formula unit,total atoms per unit cell,average atomic volume,Author of Unit Cell,Unit Cell DOI,ICSD of structure,temp of ICSD (K),S^2,ke/ktotal,space group,# symmetry elements
,,,,,,,,,,,,,,,,,,,,,,,,,,,,,,,,,,,,,,,
300,,50,-462.97,1.29E-04,1,50,-462.97,4.29E-07,,,0,CaMnO3,Ca1-xLaxMnO3,,CaMnO3,,,2.00E-02,,1.29E-04,Solid state reaction,polycrystalline,Lan2009JMST,http://www.jmst.org/EN/Y2009/V25/I04/0535,,,206.97,4,5,20,10.3485,Poeppelmeier,http://dx.doi.org/10.1016/0022-4596(82)90292-4,35218,300,2.14E+05,,62,8
400,,50,-462.97,1.71E-04,1,50,-462.97,4.29E-07,,,0,CaMnO3,Ca1-xLaxMnO3,,CaMnO3,,,2.00E-02,,1.71E-04,Solid state reaction,polycrystalline,Lan2009JMST,http://www.jmst.org/EN/Y2009/V25/I04/0535,,,206.97,4,5,20,10.3485,Poeppelmeier,http://dx.doi.org/10.1016/0022-4596(82)90292-4,35218,300,2.14E+05,,62,8
700,,2.41749,-470.65,6.41E-03,1,50,-462.97,9.16E-06,,,0,CaMnO3,Ca1-xLaxMnO3,,CaMnO3,,,4.14E-01,,6.41E-03,Solid state reaction,polycrystalline,Lan2009JMST,http://www.jmst.org/EN/Y2009/V25/I04/0535,,,206.97,4,5,20,10.3485,Poeppelmeier,http://dx.doi.org/10.1016/0022-4596(82)90292-4,35218,300,2.22E+05,,62,8
1000,,0.17749,-279.83,4.41E-02,1,50,-462.97,4.41E-05,,,0,CaMnO3,Ca1-xLaxMnO3,,CaMnO3,,,5.63E+00,,4.41E-02,Solid state reaction,polycrystalline,Lan2009JMST,http://www.jmst.org/EN/Y2009/V25/I04/0535,,,206.97,4,5,20,10.3485,Poeppelmeier,http://dx.doi.org/10.1016/0022-4596(82)90292-4,35218,300,7.83E+04,,62,8
300,,0.0461146,-201.71,2.65E-02,1,0.046115,-201.71,8.82E-05,,,0.02,Ca0.98La0.02MnO3,Ca1-xLaxMnO3,,CaMnO3,,,2.17E+01,,2.65E-02,Solid state reaction,polycrystalline,Lan2009JMST,http://www.jmst.org/EN/Y2009/V25/I04/0535,,,207.74,4,5,20,10.387,Taguchi,http://dx.doi.org/10.1006/jssc.1996.0250,82210,300,4.07E+04,,62,8
400,,0.0461146,-201.71,3.53E-02,1,0.046115,-201.71,8.82E-05,,,0.02,Ca0.98La0.02MnO3,Ca1-xLaxMnO3,,CaMnO3,,,2.17E+01,,3.53E-02,Solid state reaction,polycrystalline,Lan2009JMST,http://www.jmst.org/EN/Y2009/V25/I04/0535,,,207.74,4,5,20,10.387,Taguchi,http://dx.doi.org/10.1006/jssc.1996.0250,82210,300,4.07E+04,,62,8
700,,0.0650491,-224.12,5.41E-02,1,0.046115,-201.71,7.72E-05,,,0.02,Ca0.98La0.02MnO3,Ca1-xLaxMnO3,,CaMnO3,,,1.54E+01,,5.41E-02,Solid state reaction,polycrystalline,Lan2009JMST,http://www.jmst.org/EN/Y2009/V25/I04/0535,,,207.74,4,5,20,10.387,Taguchi,http://dx.doi.org/10.1006/jssc.1996.0250,82210,300,5.02E+04,,62,8
1000,,0.0410845,-190.18,8.80E-02,1,0.046115,-201.71,8.80E-05,,,0.02,Ca0.98La0.02MnO3,Ca1-xLaxMnO3,,CaMnO3,,,2.43E+01,,8.80E-02,Solid state reaction,polycrystalline,Lan2009JMST,http://www.jmst.org/EN/Y2009/V25/I04/0535,,,207.74,4,5,20,10.387,Taguchi,http://dx.doi.org/10.1006/jssc.1996.0250,82210,300,3.62E+04,,62,8
300,,0.0152555,-123.59,3.00E-02,1,0.015256,-123.59,1.00E-04,,,0.04,Ca0.96La0.04MnO3,Ca1-xLaxMnO3,,CaMnO3,,,6.56E+01,,3.00E-02,Solid state reaction,polycrystalline,Lan2009JMST,http://www.jmst.org/EN/Y2009/V25/I04/0535,,,208.49,4,5,20,10.4245,Taguchi,http://dx.doi.org/10.1006/jssc.1996.0250,82209,300,1.53E+04,,62,8
400,,0.0152555,-123.59,4.00E-02,1,0.015256,-123.59,1.00E-04,,,0.04,Ca0.96La0.04MnO3,Ca1-xLaxMnO3,,CaMnO3,,,6.56E+01,,4.00E-02,Solid state reaction,polycrystalline,Lan2009JMST,http://www.jmst.org/EN/Y2009/V25/I04/0535,,,208.49,4,5,20,10.4245,Taguchi,http://dx.doi.org/10.1006/jssc.1996.0250,82209,300,1.53E+04,,62,8
700,,0.02167829,-173.53,9.72E-02,1,0.015256,-123.59,1.39E-04,,,0.04,Ca0.96La0.04MnO3,Ca1-xLaxMnO3,,CaMnO3,,,4.61E+01,,9.72E-02,Solid state reaction,polycrystalline,Lan2009JMST,http://www.jmst.org/EN/Y2009/V25/I04/0535,,,208.49,4,5,20,10.4245,Taguchi,http://dx.doi.org/10.1006/jssc.1996.0250,82209,300,3.01E+04,,62,8
1000,,0.0222162,-160.09,1.15E-01,1,0.015256,-123.59,1.15E-04,,,0.04,Ca0.96La0.04MnO3,Ca1-xLaxMnO3,,CaMnO3,,,4.50E+01,,1.15E-01,Solid state reaction,polycrystalline,Lan2009JMST,http://www.jmst.org/EN/Y2009/V25/I04/0535,,,208.49,4,5,20,10.4245,Taguchi,http://dx.doi.org/10.1006/jssc.1996.0250,82209,300,2.56E+04,,62,8
300,,0.0121671,-103.74,2.65E-02,1,0.012167,-103.74,8.84E-05,,,0.06,Ca0.94La0.06MnO3,Ca1-xLaxMnO3,,CaMnO3,,,8.22E+01,,2.65E-02,Solid state reaction,polycrystalline,Lan2009JMST,http://www.jmst.org/EN/Y2009/V25/I04/0535,,,209.24,4,5,20,10.462,Taguchi,http://dx.doi.org/10.1006/jssc.1996.0250,82208,300,1.08E+04,,62,8
400,,0.0121671,-103.74,3.54E-02,1,0.012167,-103.74,8.84E-05,,,0.06,Ca0.94La0.06MnO3,Ca1-xLaxMnO3,,CaMnO3,,,8.22E+01,,3.54E-02,Solid state reaction,polycrystalline,Lan2009JMST,http://www.jmst.org/EN/Y2009/V25/I04/0535,,,209.24,4,5,20,10.462,Taguchi,http://dx.doi.org/10.1006/jssc.1996.0250,82208,300,1.08E+04,,62,8
700,,0.0170259,-127.43,6.68E-02,1,0.012167,-103.74,9.54E-05,,,0.06,Ca0.94La0.06MnO3,Ca1-xLaxMnO3,,CaMnO3,,,5.87E+01,,6.68E-02,Solid state reaction,polycrystalline,Lan2009JMST,http://www.jmst.org/EN/Y2009/V25/I04/0535,,,209.24,4,5,20,10.462,Taguchi,http://dx.doi.org/10.1006/jssc.1996.0250,82208,300,1.62E+04,,62,8
1000,,0.0188397,-135.75,9.78E-02,1,0.012167,-103.74,9.78E-05,,,0.06,Ca0.94La0.06MnO3,Ca1-xLaxMnO3,,CaMnO3,,,5.31E+01,,9.78E-02,Solid state reaction,polycrystalline,Lan2009JMST,http://www.jmst.org/EN/Y2009/V25/I04/0535,,,209.24,4,5,20,10.462,Taguchi,http://dx.doi.org/10.1006/jssc.1996.0250,82208,300,1.84E+04,,62,8
300,,0.009966115,-83.24,2.09E-02,1,0.009966,-83.24,6.95E-05,,,0.08,Ca0.92La0.08MnO3,Ca1-xLaxMnO3,,CaMnO3,,,1.00E+02,,2.09E-02,Solid state reaction,polycrystalline,Lan2009JMST,http://www.jmst.org/EN/Y2009/V25/I04/0535,,,209.93,4,5,20,10.4965,Taguchi,http://dx.doi.org/10.1006/jssc.1996.0250,82207,300,6.93E+03,,62,8
400,,0.009966115,-83.24,2.78E-02,1,0.009966,-83.24,6.95E-05,,,0.08,Ca0.92La0.08MnO3,Ca1-xLaxMnO3,,CaMnO3,,,1.00E+02,,2.78E-02,Solid state reaction,polycrystalline,Lan2009JMST,http://www.jmst.org/EN/Y2009/V25/I04/0535,,,209.93,4,5,20,10.4965,Taguchi,http://dx.doi.org/10.1006/jssc.1996.0250,82207,300,6.93E+03,,62,8
700,,0.0136322,-118.46,7.21E-02,1,0.009966,-83.24,1.03E-04,,,0.08,Ca0.92La0.08MnO3,Ca1-xLaxMnO3,,CaMnO3,,,7.34E+01,,7.21E-02,Solid state reaction,polycrystalline,Lan2009JMST,http://www.jmst.org/EN/Y2009/V25/I04/0535,,,209.93,4,5,20,10.4965,Taguchi,http://dx.doi.org/10.1006/jssc.1996.0250,82207,300,1.40E+04,,62,8
1000,,0.0157066,-140.88,1.26E-01,1,0.009966,-83.24,1.26E-04,,,0.08,Ca0.92La0.08MnO3,Ca1-xLaxMnO3,,CaMnO3,,,6.37E+01,,1.26E-01,Solid state reaction,polycrystalline,Lan2009JMST,http://www.jmst.org/EN/Y2009/V25/I04/0535,,,209.93,4,5,20,10.4965,Taguchi,http://dx.doi.org/10.1006/jssc.1996.0250,82207,300,1.98E+04,,62,8
700,,152.929,483.47,1.07E-04,4,,,1.53E-07,,,0,NiO,LixNi1-xO,,NiO,,,6.54E-03,,1.07E-04,Solid state reaction,polycrystalline,Shin1999JJAPP2,http://dx.doi.org/10.1143/JJAP.38.L1336,,,72.93,4,2,8,9.11625,Sasaki,http://dx.doi.org/10.2183/pjab.55.43,9866,300,2.34E+05,,225,192
1000,,14.6476,642.62,2.82E-03,4,,,2.82E-06,,,0,NiO,LixNi1-xO,,NiO,,,6.83E-02,,2.82E-03,Solid state reaction,polycrystalline,Shin1999JJAPP2,http://dx.doi.org/10.1143/JJAP.38.L1336,,,72.93,4,2,8,9.11625,Sasaki,http://dx.doi.org/10.2183/pjab.55.43,9866,300,4.13E+05,,225,192
400,,28.8677,294.97,1.21E-04,4,28.8677,294.97,3.01E-07,7.46E-06,16.1715,0.0024,Li0.0024Ni0.9976O,LixNi1-xO,,NiO,,,3.46E-02,,1.21E-04,Solid state reaction,polycrystalline,Shin1999JJAPP2,http://dx.doi.org/10.1143/JJAP.38.L1336,,Data at 460 K,72.93,4,2,8,9.11625,Sasaki,http://dx.doi.org/10.2183/pjab.55.43,9866,300,8.70E+04,2.09E-06,225,192
700,,0.262887,249.75,1.66E-02,4,28.8677,294.97,2.37E-05,0.001458067,11.391,0.0024,Li0.0024Ni0.9976O,LixNi1-xO,,NiO,,,3.80E+00,,1.66E-02,Solid state reaction,polycrystalline,Shin1999JJAPP2,http://dx.doi.org/10.1143/JJAP.38.L1336,,,72.93,4,2,8,9.11625,Sasaki,http://dx.doi.org/10.2183/pjab.55.43,9866,300,6.24E+04,0.000570369,225,192
1000,,0.0466044,262.41,1.48E-01,4,28.8677,294.97,1.48E-04,0.0174976,8.44401,0.0024,Li0.0024Ni0.9976O,LixNi1-xO,,NiO,,,2.15E+01,,1.48E-01,Solid state reaction,polycrystalline,Shin1999JJAPP2,http://dx.doi.org/10.1143/JJAP.38.L1336,,,72.93,4,2,8,9.11625,Sasaki,http://dx.doi.org/10.2183/pjab.55.43,9866,300,6.89E+04,0.00620032,225,192
400,,5.08647,249.37,4.89E-04,4,5.08647,249.37,1.22E-06,5.87E-05,8.32761,0.0066,Li0.0066Ni0.9944O,LixNi1-xO,,NiO,,,1.97E-01,,4.89E-04,Solid state reaction,polycrystalline,Shin1999JJAPP2,http://dx.doi.org/10.1143/JJAP.38.L1336,,Data at 460 K,72.93,4,2,8,9.11625,Sasaki,http://dx.doi.org/10.2183/pjab.55.43,9866,300,6.22E+04,2.30E-05,225,192
700,,0.0316209,200.39,8.89E-02,4,5.08647,249.37,1.27E-04,0.0147901,6.0105,0.0066,Li0.0066Ni0.9944O,LixNi1-xO,,NiO,,,3.16E+01,,8.89E-02,Solid state reaction,polycrystalline,Shin1999JJAPP2,http://dx.doi.org/10.1143/JJAP.38.L1336,,,72.93,4,2,8,9.11625,Sasaki,http://dx.doi.org/10.2183/pjab.55.43,9866,300,4.02E+04,0.008986771,225,192
1000,,0.0284784,206.66,1.50E-01,4,5.08647,249.37,1.50E-04,0.02826674,5.30518,0.0066,Li0.0066Ni0.9944O,LixNi1-xO,,NiO,,,3.51E+01,,1.50E-01,Solid state reaction,polycrystalline,Shin1999JJAPP2,http://dx.doi.org/10.1143/JJAP.38.L1336,,,72.93,4,2,8,9.11625,Sasaki,http://dx.doi.org/10.2183/pjab.55.43,9866,300,4.27E+04,0.01615,225,192
400,,0.0642723,116.91,8.51E-03,4,0.064272,116.91,2.13E-05,,,0.0184,Li0.0184Ni0.9816O,LixNi1-xO,,NiO,,,1.56E+01,,8.51E-03,Solid state reaction,polycrystalline,Shin1999JJAPP2,http://dx.doi.org/10.1143/JJAP.38.L1336,,Data at 460 K,72.93,4,2,8,9.11625,Sasaki,http://dx.doi.org/10.2183/pjab.55.43,9866,300,1.37E+04,,225,192
700,,0.0198049,97.88,3.39E-02,4,0.064272,116.91,4.84E-05,,,0.0184,Li0.0184Ni0.9816O,LixNi1-xO,,NiO,,,5.05E+01,,3.39E-02,Solid state reaction,polycrystalline,Shin1999JJAPP2,http://dx.doi.org/10.1143/JJAP.38.L1336,,,72.93,4,2,8,9.11625,Sasaki,http://dx.doi.org/10.2183/pjab.55.43,9866,300,9.58E+03,,225,192
1000,,0.006660716,105.17,1.66E-01,4,0.064272,116.91,1.66E-04,,,0.0184,Li0.0184Ni0.9816O,LixNi1-xO,,NiO,,,1.50E+02,,1.66E-01,Solid state reaction,polycrystalline,Shin1999JJAPP2,http://dx.doi.org/10.1143/JJAP.38.L1336,,,72.93,4,2,8,9.11625,Sasaki,http://dx.doi.org/10.2183/pjab.55.43,9866,300,1.11E+04,,225,192
400,,0.0123433,102.59,3.41E-02,4,0.012343,102.59,8.53E-05,0.009093419,3.75078,0.0242,Li0.0242Ni0.9758O,LixNi1-xO,,NiO,,,8.10E+01,,3.41E-02,Solid state reaction,polycrystalline,Shin1999JJAPP2,http://dx.doi.org/10.1143/JJAP.38.L1336,,Data at 460 K,72.93,4,2,8,9.11625,Sasaki,http://dx.doi.org/10.2183/pjab.55.43,9866,300,1.05E+04,0.0210814,225,192
700,,0.004865541,77.37,8.61E-02,4,0.012343,102.59,1.23E-04,0.0246366,3.49599,0.0242,Li0.0242Ni0.9758O,LixNi1-xO,,NiO,,,2.06E+02,,8.61E-02,Solid state reaction,polycrystalline,Shin1999JJAPP2,http://dx.doi.org/10.1143/JJAP.38.L1336,,,72.93,4,2,8,9.11625,Sasaki,http://dx.doi.org/10.2183/pjab.55.43,9866,300,5.99E+03,0.100412,225,192
1000,,0.003874392,79.49,1.63E-01,4,0.012343,102.59,1.63E-04,0.063969,2.54979,0.0242,Li0.0242Ni0.9758O,LixNi1-xO,,NiO,,,2.58E+02,,1.63E-01,Solid state reaction,polycrystalline,Shin1999JJAPP2,http://dx.doi.org/10.1143/JJAP.38.L1336,,,72.93,4,2,8,9.11625,Sasaki,http://dx.doi.org/10.2183/pjab.55.43,9866,300,6.32E+03,0.246991,225,192
300,,5.0076,-572.04,1.96E-03,1,2.925075,-549.12,6.53E-06,,,0,CaMnO3,Ca1-xBixMn1-yNbyO3,,CaMnO3,,,2.00E-01,,1.96E-03,Solid state reaction,polycrystalline,Park2009JAC,http://dx.doi.org/10.1016/j.jallcom.2009.08.012,x=y,Extrapolated from 325 K,206.97,4,5,20,10.3485,Poeppelmeier,http://dx.doi.org/10.1016/0022-4596(82)90292-4,35218,300,3.27E+05,,62,8
400,,2.92507,-549.12,4.12E-03,1,2.925075,-549.12,1.03E-05,0.001247231,3.30607,0,CaMnO3,Ca1-xBixMn1-yNbyO3,,CaMnO3,,,3.42E-01,,4.12E-03,Solid state reaction,polycrystalline,Park2009JAC,http://dx.doi.org/10.1016/j.jallcom.2009.08.012,x=y,,206.97,4,5,20,10.3485,Poeppelmeier,http://dx.doi.org/10.1016/0022-4596(82)90292-4,35218,300,3.02E+05,0.000100925,62,8
700,,0.643244,-477.48,2.48E-02,1,2.925075,-549.12,3.54E-05,0.012122,2.04673,0,CaMnO3,Ca1-xBixMn1-yNbyO3,,CaMnO3,,,1.55E+00,,2.48E-02,Solid state reaction,polycrystalline,Park2009JAC,http://dx.doi.org/10.1016/j.jallcom.2009.08.012,x=y,,206.97,4,5,20,10.3485,Poeppelmeier,http://dx.doi.org/10.1016/0022-4596(82)90292-4,35218,300,2.28E+05,0.001297333,62,8
1000,,0.110571,-406.81,1.50E-01,1,2.925075,-549.12,1.50E-04,0.0891588,1.67874,0,CaMnO3,Ca1-xBixMn1-yNbyO3,,CaMnO3,,,9.04E+00,,1.50E-01,Solid state reaction,polycrystalline,Park2009JAC,http://dx.doi.org/10.1016/j.jallcom.2009.08.012,x=y,Extrapolated from 972 K,206.97,4,5,20,10.3485,Poeppelmeier,http://dx.doi.org/10.1016/0022-4596(82)90292-4,35218,300,1.66E+05,0.0131451,62,8
300,,0.02032591,-100.04,1.48E-02,1,0.021537,-119.21,4.92E-05,0.005877928,2.51281,0.02,Ca0.98Bi0.02Mn0.98Nb0.02O3,Ca1-xBixMn1-yNbyO3,,CaMnO3,,,4.92E+01,,1.48E-02,Solid state reaction,polycrystalline,Park2009JAC,http://dx.doi.org/10.1016/j.jallcom.2009.08.012,x=y,Extrapolated from 325 K,206.97,4,5,20,10.3485,Poeppelmeier,http://dx.doi.org/10.1016/0022-4596(82)90292-4,35218,300,1.00E+04,0.0143318,62,8
400,,0.0215372,-119.21,2.64E-02,1,0.021537,-119.21,6.60E-05,0.0116031,2.27454,0.02,Ca0.98Bi0.02Mn0.98Nb0.02O3,Ca1-xBixMn1-yNbyO3,,CaMnO3,,,4.64E+01,,2.64E-02,Solid state reaction,polycrystalline,Park2009JAC,http://dx.doi.org/10.1016/j.jallcom.2009.08.012,x=y,,206.97,4,5,20,10.3485,Poeppelmeier,http://dx.doi.org/10.1016/0022-4596(82)90292-4,35218,300,1.42E+04,0.0199235,62,8
700,,0.0259143,-184.31,9.18E-02,1,0.021537,-119.21,1.31E-04,0.0488456,1.87848,0.02,Ca0.98Bi0.02Mn0.98Nb0.02O3,Ca1-xBixMn1-yNbyO3,,CaMnO3,,,3.86E+01,,9.18E-02,Solid state reaction,polycrystalline,Park2009JAC,http://dx.doi.org/10.1016/j.jallcom.2009.08.012,x=y,,206.97,4,5,20,10.3485,Poeppelmeier,http://dx.doi.org/10.1016/0022-4596(82)90292-4,35218,300,3.40E+04,0.0350866,62,8
1000,,0.0266379,-205.16,1.58E-01,1,0.021537,-119.21,1.58E-04,0.0910244,1.73598,0.02,Ca0.98Bi0.02Mn0.98Nb0.02O3,Ca1-xBixMn1-yNbyO3,,CaMnO3,,,3.75E+01,,1.58E-01,Solid state reaction,polycrystalline,Park2009JAC,http://dx.doi.org/10.1016/j.jallcom.2009.08.012,x=y,Extrapolated from 972 K,206.97,4,5,20,10.3485,Poeppelmeier,http://dx.doi.org/10.1016/0022-4596(82)90292-4,35218,300,4.21E+04,0.0527649,62,8
300,,0.008864209,-91.19,2.81E-02,1,0.009824,-114.15,9.38E-05,0.0124103,2.2675,0.04,Ca0.96Bi0.04Mn0.96Nb0.04O3,Ca1-xBixMn1-yNbyO3,,CaMnO3,,,1.13E+02,,2.81E-02,Solid state reaction,polycrystalline,Park2009JAC,http://dx.doi.org/10.1016/j.jallcom.2009.08.012,x=y,Extrapolated from 325 K,206.97,4,5,20,10.3485,Poeppelmeier,http://dx.doi.org/10.1016/0022-4596(82)90292-4,35218,300,8.31E+03,0.0364186,62,8
400,,0.009823585,-114.15,5.31E-02,1,0.009824,-114.15,1.33E-04,0.0245637,2.16005,0.04,Ca0.96Bi0.04Mn0.96Nb0.04O3,Ca1-xBixMn1-yNbyO3,,CaMnO3,,,1.02E+02,,5.31E-02,Solid state reaction,polycrystalline,Park2009JAC,http://dx.doi.org/10.1016/j.jallcom.2009.08.012,x=y,,206.97,4,5,20,10.3485,Poeppelmeier,http://dx.doi.org/10.1016/0022-4596(82)90292-4,35218,300,1.30E+04,0.0459956,62,8
700,,0.012502,-164.08,1.51E-01,1,0.009824,-114.15,2.15E-04,0.080247,1.8785,0.04,Ca0.96Bi0.04Mn0.96Nb0.04O3,Ca1-xBixMn1-yNbyO3,,CaMnO3,,,8.00E+01,,1.51E-01,Solid state reaction,polycrystalline,Park2009JAC,http://dx.doi.org/10.1016/j.jallcom.2009.08.012,x=y,,206.97,4,5,20,10.3485,Poeppelmeier,http://dx.doi.org/10.1016/0022-4596(82)90292-4,35218,300,2.69E+04,0.0727272,62,8
1000,,0.0145455,-172.3,2.04E-01,1,0.009824,-114.15,2.04E-04,0.120992,1.6869,0.1,Ca0.9Bi0.1Mn0.9Nb0.1O3,Ca1-xBixMn1-yNbyO3,,CaMnO3,,,6.88E+01,,2.04E-01,Solid state reaction,polycrystalline,Park2009JAC,http://dx.doi.org/10.1016/j.jallcom.2009.08.012,x=y,Extrapolated from 972 K,206.97,4,5,20,10.3485,Poeppelmeier,http://dx.doi.org/10.1016/0022-4596(82)90292-4,35218,300,2.97E+04,0.0994421,62,8
300,,0.007325377,-72.23,2.14E-02,1,0.007258,-72.44,7.12E-05,,,0.1,Ca0.9Bi0.1Mn0.9Nb0.1O3,Ca1-xBixMn1-yNbyO3,,CaMnO3,,,1.37E+02,,2.14E-02,Solid state reaction,polycrystalline,Park2009JAC,http://dx.doi.org/10.1016/j.jallcom.2009.08.012,x=y,Extrapolated from 325 K,206.97,4,5,20,10.3485,Poeppelmeier,http://dx.doi.org/10.1016/0022-4596(82)90292-4,35218,300,5.22E+03,,62,8
400,,0.007257717,-72.44,2.89E-02,1,0.007258,-72.44,7.23E-05,,,0.1,Ca0.9Bi0.1Mn0.9Nb0.1O3,Ca1-xBixMn1-yNbyO3,,CaMnO3,,,1.38E+02,,2.89E-02,Solid state reaction,polycrystalline,Park2009JAC,http://dx.doi.org/10.1016/j.jallcom.2009.08.012,x=y,,206.97,4,5,20,10.3485,Poeppelmeier,http://dx.doi.org/10.1016/0022-4596(82)90292-4,35218,300,5.25E+03,,62,8
700,,0.007633259,-80.65,5.97E-02,1,0.007258,-72.44,8.52E-05,,,0.1,Ca0.9Bi0.1Mn0.9Nb0.1O3,Ca1-xBixMn1-yNbyO3,,CaMnO3,,,1.31E+02,,5.97E-02,Solid state reaction,polycrystalline,Park2009JAC,http://dx.doi.org/10.1016/j.jallcom.2009.08.012,x=y,,206.97,4,5,20,10.3485,Poeppelmeier,http://dx.doi.org/10.1016/0022-4596(82)90292-4,35218,300,6.50E+03,,62,8
1000,,0.008303286,-92.67,1.03E-01,1,0.007258,-72.44,1.03E-04,,,0.1,Ca0.9Bi0.1Mn0.9Nb0.1O3,Ca1-xBixMn1-yNbyO3,,CaMnO3,,,1.20E+02,,1.03E-01,Solid state reaction,polycrystalline,Park2009JAC,http://dx.doi.org/10.1016/j.jallcom.2009.08.012,x=y,Extrapolated from 972 K,206.97,4,5,20,10.3485,Poeppelmeier,http://dx.doi.org/10.1016/0022-4596(82)90292-4,35218,300,8.59E+03,,62,8
[...]
300,,0.10502,-186,9.88E-03,4,,,3.29E-05,0.005928401,1.667,,Sr0.61Ba0.39Nb2O6,Sr0.6Ba0.4Nb2O6,,Sr0.6Ba0.4Nb2O6,,,9.52E+00,,9.88E-03,"Czochralski method, anneal PO<sub>2</sub> 10<sup>-14</sup>",single crystal,Lee2010APL,http://dx.doi.org/10.1063/1.32916,,"*kappa from Choy 1992 polycrystalline samples used, values parallel to c axis",610.4,5,9,45,13.5644,Carrio,http://dx.doi.org/10.1590/S1516-14392002000100010,96013,300,3.46E+04,0.004181206,100,8
400,,0.0146136,-194,1.03E-01,4,,,2.58E-04,0.0509854,2.0205,,Sr0.61Ba0.39Nb2O6,Sr0.6Ba0.4Nb2O6,,Sr0.6Ba0.4Nb2O6,,,6.84E+01,,1.03E-01,"Czochralski method, anneal PO<sub>2</sub> 10<sup>-14</sup>",single crystal,Lee2010APL,http://dx.doi.org/10.1063/1.32916,,"*kappa from Choy 1992 polycrystalline samples used, values parallel to c axis",610.4,5,9,45,13.5644,Carrio,http://dx.doi.org/10.1590/S1516-14392002000100010,96013,300,3.76E+04,0.0330547,100,8
700,,0.0014,-201,2.02E+00,4,,,2.89E-03,0.93017,2.1717,,Sr0.61Ba0.39Nb2O6,Sr0.6Ba0.4Nb2O6,,Sr0.6Ba0.4Nb2O6,,,7.14E+02,,2.02E+00,"Czochralski method, anneal PO<sub>2</sub> 10<sup>-14</sup>",single crystal,Lee2010APL,http://dx.doi.org/10.1063/1.32916,,"*values at 550 K, extrapolated from 516 K, values parallel to c axis",610.4,5,9,45,13.5644,Carrio,http://dx.doi.org/10.1590/S1516-14392002000100010,96013,300,4.04E+04,0.561772,100,8
300,,0.0618812,-220,2.35E-02,4,,,7.82E-05,0.0140758,1.667,,Sr0.61Ba0.39Nb2O6,Sr0.6Ba0.4Nb2O6,,Sr0.6Ba0.4Nb2O6,,,1.62E+01,,2.35E-02,"templated grain growth, air, anneal PO<sub>2</sub> 10<sup>-14</sup>",polycrystalline,Lee2011JMR,http://dx.doi.org/10.1557/jmr.2010.78,,"*kappa from Choy 1992 polycrystalline samples used, values parallel to c axis",610.4,5,9,45,13.5644,Carrio,http://dx.doi.org/10.1590/S1516-14392002000100010,96013,300,4.84E+04,0.007096053,100,8
400,,0.0162259,-220,1.19E-01,4,,,2.98E-04,0.0590526,2.0205,,Sr0.61Ba0.39Nb2O6,Sr0.6Ba0.4Nb2O6,,Sr0.6Ba0.4Nb2O6,,,6.16E+01,,1.19E-01,"templated grain growth, air, anneal PO<sub>2</sub> 10<sup>-14</sup>",polycrystalline,Lee2011JMR,http://dx.doi.org/10.1557/jmr.2010.78,,"*kappa from Choy 1992 polycrystalline samples used, values parallel to c axis",610.4,5,9,45,13.5644,Carrio,http://dx.doi.org/10.1590/S1516-14392002000100010,96013,300,4.84E+04,0.0297703,100,8
700,,0.008,-216,4.08E-01,4,,,5.83E-04,0.187982,2.1717,,Sr0.61Ba0.39Nb2O6,Sr0.6Ba0.4Nb2O6,,Sr0.6Ba0.4Nb2O6,,,1.25E+02,,4.08E-01,"templated grain growth, air, anneal PO<sub>2</sub> 10<sup>-14</sup>",polycrystalline,Lee2011JMR,http://dx.doi.org/10.1557/jmr.2010.78,,"*values at 550 K, extrapolated from 516 K, values parallel to c axis",610.4,5,9,45,13.5644,Carrio,http://dx.doi.org/10.1590/S1516-14392002000100010,96013,300,4.67E+04,0.09831008,100,8
300,,0.00114,-19,9.50E-03,4,,,3.17E-05,0.003877551,2.45,,Sr4.5Nb4.5O15.5,SrnNbnO3n+2,,SrnNbnO3n+2,,,8.77E+02,,9.50E-03,"floating zone method, Ar",single crystal,Sakai2012JACS,http://dx.doi.org/10.1111/j.1551-2916.2012.05169.x,,,735.99,2,26,52,14.1537,Schuekel,http://dx.doi.org/10.1002/zaac.19855280909,48207,300,3.61E+02,0.262084,31,4
300,,0.005,-107,6.87E-02,4,,,2.29E-04,0.0381633,1.8,,Sr1.6La0.4Nb2O7,Sr2-xLaxNb2O7,,Sr2Nb2O7,,,2.00E+02,,6.87E-02,"floating zone method, Ar",single,Sakai2012JACS,http://dx.doi.org/10.1111/j.1551-2916.2012.05169.x,,,597.36,4,11,44,13.5764,Ishizawa,http://dx.doi.org/10.1107/S0567740875006462,187,300,1.14E+04,0.0813333,36,8
300,,0.001178241,120.75,3.71E-01,10,,,1.24E-03,0.151567,2.44922,,Si0.8Ge0.2,Si(1-x)Gex,,Si,,,8.49E+02,,3.71E-01,"ball milling, hot-pressed nanopowders",polycrystalline,Joshi2008NL,http://dx.doi.org/10.1021/nl8026795,,,169.78,4,2,8,21.2225,Dismukes,http://dx.doi.org/10.1021/j100792a049,53910,300,1.46E+04,0.253658,227,192
400,,0.001291918,138.43,5.93E-01,10,,,1.48E-03,0.235493,2.51953,,Si0.8Ge0.2,Si(1-x)Gex,,Si,,,7.74E+02,,5.93E-01,"ball milling, hot-pressed nanopowders",polycrystalline,Joshi2008NL,http://dx.doi.org/10.1021/nl8026795,,,169.78,4,2,8,21.2225,Dismukes,http://dx.doi.org/10.1021/j100792a049,53910,300,1.92E+04,0.299844,227,192
700,,0.001787074,191.49,1.44E+00,10,,,2.05E-03,0.559663,2.56641,,Si0.8Ge0.2,Si(1-x)Gex,,Si,,,5.60E+02,,1.44E+00,"ball milling, hot-pressed nanopowders",polycrystalline,Joshi2008NL,http://dx.doi.org/10.1021/nl8026795,,,169.78,4,2,8,21.2225,Dismukes,http://dx.doi.org/10.1021/j100792a049,53910,300,3.67E+04,0.372408,227,192
1000,,0.002484145,231.64,2.16E+00,10,,,2.16E-03,0.845526,2.55469,,Si0.8Ge0.2,Si(1-x)Gex,,Si,,,4.03E+02,,2.16E+00,"ball milling, hot-pressed nanopowders",polycrystalline,Joshi2008NL,http://dx.doi.org/10.1021/nl8026795,,,169.78,4,2,8,21.2225,Dismukes,http://dx.doi.org/10.1021/j100792a049,53910,300,5.37E+04,0.384481,227,192
300,,0.000678887,81,2.90E-01,9,,,9.66E-04,1.02E-01,2.85E+00,,Pb0.96Sr0.4TeNa0.2,"PbTe  (4mol% SrTe, 2mol% Na)",,PbTe,,,1.47E+03,,2.90E-01,sparks plasma sintering,polycrystalline,Biswas2012N,http://dx.doi.org/10.1038/nature11439,,,269.84,4,2,8,33.73,Noda,http://dx.doi.org/10.1107/S0108270187091509,63099,298,6.56E+03,0.378328,225,192
400,,0.000844595,128,7.76E-01,9,,,1.94E-03,3.65E-01,2.13E+00,,Pb0.96Sr0.4TeNa0.2,"PbTe  (4mol% SrTe, 2mol% Na)",,PbTe,,,1.18E+03,,7.76E-01,sparks plasma sintering,polycrystalline,Biswas2012N,http://dx.doi.org/10.1038/nature11439,,,269.84,4,2,8,33.73,Noda,http://dx.doi.org/10.1107/S0108270187091509,63099,298,1.64E+04,0.543548,225,192
700,,0.002123142,239,1.88E+00,9,,,2.69E-03,1.60E+00,1.18E+00,,Pb0.96Sr0.4TeNa0.2,"PbTe  (4mol% SrTe, 2mol% Na)",,PbTe,,,4.71E+02,,1.88E+00,sparks plasma sintering,polycrystalline,Biswas2012N,http://dx.doi.org/10.1038/nature11439,,,269.84,4,2,8,33.73,Noda,http://dx.doi.org/10.1107/S0108270187091509,63099,298,5.71E+04,0.681753,225,192
1000,,0.003154574,265,2.23E+00,9,,,2.23E-03,2.27E+00,9.80E-01,,Pb0.96Sr0.4TeNa0.2,"PbTe  (4mol% SrTe, 2mol% Na)",,PbTe,,,3.17E+02,,2.23E+00,sparks plasma sintering,polycrystalline,Biswas2012N,http://dx.doi.org/10.1038/nature11439,,*data from 900K,269.84,4,2,8,33.73,Noda,http://dx.doi.org/10.1107/S0108270187091509,63099,298,7.02E+04,0.789265,225,192
300,,0.0004095,68,3.39E-01,9,,,1.13E-03,1.11E-01,3.07E+00,,Pb0.98Sr0.2TeNa0.1,"PbTe  (2 mol% SrTe, 1 mol% Na)",,PbTe,,,2.44E+03,,3.39E-01,melting,polycrystalline,Biswas2012N,http://dx.doi.org/10.1038/nature11439,,,269.84,4,2,8,33.73,Noda,http://dx.doi.org/10.1107/S0108270187091509,63099,298,4.62E+03,0.583212,225,192
400,,0.000706714,117,7.75E-01,9,,,1.94E-03,3.47E-01,2.23E+00,,Pb0.98Sr0.2TeNa0.1,"PbTe  (2 mol% SrTe, 1 mol% Na)",,PbTe,,,1.42E+03,,7.75E-01,melting,polycrystalline,Biswas2012N,http://dx.doi.org/10.1038/nature11439,,,269.84,4,2,8,33.73,Noda,http://dx.doi.org/10.1107/S0108270187091509,63099,298,1.37E+04,0.6193,225,192
700,,0.003012048,263,1.61E+00,9,,,2.30E-03,1.56E+00,1.03E+00,,Pb0.98Sr0.2TeNa0.1,"PbTe  (2 mol% SrTe, 1 mol% Na)",,PbTe,,,3.32E+02,,1.61E+00,melting,polycrystalline,Biswas2012N,http://dx.doi.org/10.1038/nature11439,,,269.84,4,2,8,33.73,Noda,http://dx.doi.org/10.1107/S0108270187091509,63099,298,6.92E+04,0.55054,225,192
300,,0.00041684,64,2.95E-01,9,,,9.83E-04,6.87E-02,4.29E+00,,Pb0.98TeNa0.2,PbTe  (2 mol% Na),,PbTe,,,2.40E+03,,2.95E-01,melting,polycrystalline,Biswas2012N,http://dx.doi.org/10.1038/nature11439,,,269.84,4,2,8,33.73,Noda,http://dx.doi.org/10.1107/S0108270187091509,63099,298,4.10E+03,0.40934,225,192
400,,0.000576037,105,7.66E-01,9,,,1.91E-03,2.41E-01,3.18E+00,,Pb0.98TeNa0.2,PbTe  (2 mol% Na),,PbTe,,,1.74E+03,,7.66E-01,melting,polycrystalline,Biswas2012N,http://dx.doi.org/10.1038/nature11439,,,269.84,4,2,8,33.73,Noda,http://dx.doi.org/10.1107/S0108270187091509,63099,298,1.10E+04,0.53281,225,192
700,,0.002252252,236,1.73E+00,9,,,2.47E-03,1.20E+00,1.44E+00,,Pb0.98TeNa0.2,PbTe  (2 mol% Na),,PbTe,,,4.44E+02,,1.73E+00,melting,polycrystalline,Biswas2012N,http://dx.doi.org/10.1038/nature11439,,,269.84,4,2,8,33.73,Noda,http://dx.doi.org/10.1107/S0108270187091509,63099,298,5.57E+04,0.526633,225,192
300,,0.003901983,-43.6474,1.46E-02,,,,4.88E-05,6.05E-03,2.42053,,W08,WO3-Nb2O5,,WO3-Nb2O5,,,2.56E+02,,1.46E-02,SPS,polycrystalline,,,,,,,,,,,,,,1.91E+03,0.0775024,,
400,,0.004308941,-58.4519,3.17E-02,,,,7.93E-05,1.32E-02,2.40517,,W08,WO3-Nb2O5,,WO3-Nb2O5,,,2.32E+02,,3.17E-02,SPS,polycrystalline,,,,,,,,,,,,,,3.42E+03,0.0941747,,
700,,0.005641709,-98.149,1.20E-01,,,,1.71E-04,5.02E-02,2.38172,,W08,WO3-Nb2O5,,WO3-Nb2O5,,,1.77E+02,,1.20E-01,SPS,polycrystalline,,,,,,,,,,,,,,9.63E+03,0.127112,,
1000,,0.007142314,-130.771,2.39E-01,,,,2.39E-04,1.00E-01,2.392238,,W08,WO3-Nb2O5,,WO3-Nb2O5,,,1.40E+02,,2.39E-01,SPS,polycrystalline,,,,,,,,,,,,,,1.71E+04,0.142806,,